IAD1   # Must be first four characters
1.33   # Index of refraction of the sample 
1.46   # Index of refraction of the top and bottom slides 
1.25   # [mm] Thickness of sample 
1.25   # [mm] Thickness of slides 
4      # [mm] Diameter of illumination beam 
0.98   # Reflectivity of the reflectance calibration standard

1      # Number of spheres used for the measurement

# Properties of sphere used for reflectance measurements
101.6  # [mm] Sphere Diameter
12.7   # [mm] Sample Port Diameter
12.7   # [mm] Entrance Port Diameter
0.6    # [mm] Detector Port Diameter
0.94   # Reflectivity of the sphere wall

# Properties of sphere for transmittance measurements
101.6  # [mm] Sphere Diameter
12.7   # [mm] Sample Port Diameter
12.7   # [mm] Third Port Diameter
0.6    # [mm] Detector Port Diameter
0.94   # Reflectivity of the sphere wall

  L  	  r    	  t    	  n    	  N    	  g
890.0	0.23540	0.34140	1.32800	1.45190	0.72607
906.6	0.24310	0.34900	1.32800	1.45166	0.72285
923.1	0.23260	0.33930	1.32800	1.45143	0.71920
939.7	0.22460	0.32950	1.32741	1.45120	0.71477
956.3	0.21770	0.31840	1.32700	1.45098	0.70968
972.8	0.20570	0.30700	1.32700	1.45077	0.70395
989.4	0.20930	0.31220	1.32700	1.45055	0.69735
1006.0	0.21220	0.32010	1.32691	1.45034	0.68988
1022.5	0.21160	0.33430	1.32666	1.45014	0.68160
1039.1	0.22320	0.34270	1.32641	1.44993	0.67247
1055.6	0.22440	0.34850	1.32617	1.44973	0.66267
1072.1	0.22220	0.35080	1.32592	1.44953	0.65223
1088.6	0.22330	0.35340	1.32567	1.44934	0.64121
1105.1	0.21330	0.34690	1.32542	1.44914	0.62971
1121.6	0.20620	0.34140	1.32518	1.44895	0.61780
1138.1	0.18510	0.31730	1.32493	1.44876	0.60557
1154.6	0.16140	0.28440	1.32468	1.44857	0.59312
1171.0	0.15670	0.28060	1.32444	1.44838	0.58058
1187.5	0.14880	0.27530	1.32419	1.44819	0.56789
1203.9	0.14670	0.27570	1.32394	1.44801	0.55526
1220.3	0.14820	0.28250	1.32370	1.44782	0.54266
1236.6	0.15030	0.28820	1.32345	1.44763	0.53023
1253.0	0.15200	0.29230	1.32320	1.44745	0.51785
1269.3	0.15430	0.29710	1.32296	1.44726	0.50572
1285.6	0.14980	0.29110	1.32272	1.44708	0.49377
1301.9	0.13740	0.27400	1.32247	1.44690	0.48205
1318.2	0.12650	0.25440	1.32223	1.44671	0.47057
1334.4	0.10770	0.22060	1.32198	1.44653	0.45940
1350.6	0.09070	0.19020	1.32174	1.44634	0.44850
1366.7	0.07710	0.16330	1.32150	1.44616	0.43793
1382.9	0.04420	0.09290	1.32126	1.44598	0.42757
1399.0	0.02230	0.02930	1.32102	1.44579	0.41755
1415.0	0.01280	0.01150	1.32070	1.44561	0.40784
1431.1	0.01000	0.00780	1.32038	1.44542	0.39833
1447.0	0.01020	0.00610	1.32006	1.44524	0.38920
1463.0	0.01060	0.00660	1.31974	1.44505	0.38029
1478.9	0.01170	0.00920	1.31942	1.44487	0.37168
1494.8	0.01480	0.01450	1.31910	1.44468	0.36334
1510.6	0.01870	0.02230	1.31879	1.44449	0.35528
1526.4	0.02170	0.03300	1.31847	1.44431	0.34747
1542.2	0.02580	0.04690	1.31816	1.44412	0.33989
1557.9	0.03030	0.06060	1.31784	1.44393	0.33258
1573.5	0.03560	0.07650	1.31753	1.44374	0.32553
1589.2	0.04020	0.08880	1.31722	1.44355	0.31865
1604.7	0.04290	0.10060	1.31688	1.44336	0.31205
1620.2	0.04280	0.10400	1.31649	1.44317	0.30562
1635.7	0.05120	0.12430	1.31611	1.44298	0.29937
1651.1	0.05420	0.13050	1.31572	1.44279	0.29335
1666.5	0.06300	0.14350	1.31534	1.44260	0.28750
1681.8	0.08780	0.17350	1.31496	1.44240	0.28186
1697.0	0.22980	0.32880	1.31458	1.44221	0.27641
1712.2	0.24320	0.34600	1.31420	1.44202	0.27112
